No.	AMP	Hi_L	Low_L	INT	COUNT	Si[MPa]	Si[PSI]	Quality
    1	  0,5	  0,5	   -0	1141,7	    4	 -4,9	-707,1	  263
    2	  0,3	  0,3	   -0	953,7	    0	 -2,6	-370,9	  254
    3	  0,5	  0,5	   -0	1671,4	   13	 79,6	11541,7	  265
